Wavelength	Transmittance	hex_color	Manufacturer	Name	Filter Number
350	0.002		Omega	450BP100/9MM Bandpass	W4379
351	0.0				
352	0.0				
353	0.0				
354	0.0				
355	0.0				
356	0.0				
357	0.0				
358	0.0				
359	0.0				
360	0.001				
361	0.002				
362	0.0				
363	0.0				
364	0.0				
365	0.0				
366	0.002				
367	0.0				
368	0.0				
369	0.0				
370	0.001				
371	0.0				
372	0.0				
373	0.0				
374	0.0				
375	0.003				
376	0.0				
377	0.0				
378	0.003				
379	0.003				
380	0.002				
381	0.004				
382	0.0				
383	0.003				
384	0.001				
385	0.004				
386	0.005				
387	0.006				
388	0.008				
389	0.013				
390	0.034				
391	0.128				
392	0.801				
393	2.596				
394	2.351				
395	2.169				
396	3.584				
397	8.619				
398	24.897				
399	57.661				
400	80.403				
401	86.36				
402	88.328				
403	89.04				
404	89.682				
405	90.515				
406	90.796				
407	90.879				
408	91.544				
409	92.228				
410	92.164				
411	91.658				
412	91.507				
413	92.183				
414	93.082				
415	93.768				
416	93.518				
417	93.233				
418	93.366				
419	93.729				
420	94.242				
421	94.348				
422	94.043				
423	94.01				
424	94.39				
425	94.942				
426	95.395				
427	95.023				
428	94.312				
429	93.88				
430	94.156				
431	94.936				
432	95.468				
433	95.612				
434	95.396				
435	95.193				
436	95.429				
437	95.574				
438	95.68				
439	95.488				
440	95.382				
441	95.5				
442	95.902				
443	96.023				
444	95.848				
445	95.616				
446	95.892				
447	96.643				
448	97.152				
449	96.96				
450	96.114				
451	95.249				
452	95.066				
453	95.569				
454	96.426				
455	96.973				
456	96.977				
457	96.344				
458	96.016				
459	96.195				
460	96.94				
461	97.491				
462	97.461				
463	96.822				
464	95.986				
465	95.288				
466	95.063				
467	95.383				
468	95.976				
469	96.428				
470	96.85				
471	97.212				
472	97.222				
473	97.268				
474	97.016				
475	96.721				
476	96.455				
477	96.558				
478	96.758				
479	97.23				
480	97.216				
481	96.892				
482	96.288				
483	95.708				
484	95.553				
485	96.118				
486	96.883				
487	97.379				
488	97.397				
489	96.702				
490	95.871				
491	95.648				
492	96.226				
493	97.08				
494	96.794				
495	93.399				
496	85.653				
497	74.091				
498	60.969				
499	48.33				
500	37.73				
501	29.337				
502	23.095				
503	18.532				
504	15.03				
505	12.404				
506	10.327				
507	8.583				
508	7.051				
509	5.663				
510	4.444				
511	3.409				
512	2.55				
513	1.901				
514	1.419				
515	1.063				
516	0.814				
517	0.637				
518	0.51				
519	0.412				
520	0.339				
521	0.29				
522	0.26				
523	0.231				
524	0.212				
525	0.198				
526	0.192				
527	0.192				
528	0.188				
529	0.188				
530	0.192				
531	0.193				
532	0.195				
533	0.2				
534	0.201				
535	0.185				
536	0.16				
537	0.125				
538	0.096				
539	0.07				
540	0.055				
541	0.042				
542	0.038				
543	0.031				
544	0.023				
545	0.024				
546	0.027				
547	0.031				
548	0.031				
549	0.024				
550	0.013				
551	0.008				
552	0.002				
553	0.001				
554	0.001				
555	0.003				
556	0.002				
557	0.001				
558	0.0				
559	0.003				
560	0.001				
561	0.0				
562	0.004				
563	0.001				
564	0.001				
565	0.003				
566	0.009				
567	0.009				
568	0.017				
569	0.024				
570	0.03				
571	0.027				
572	0.025				
573	0.02				
574	0.018				
575	0.015				
576	0.019				
577	0.014				
578	0.016				
579	0.021				
580	0.022				
581	0.02				
582	0.025				
583	0.021				
584	0.021				
585	0.022				
586	0.022				
587	0.016				
588	0.017				
589	0.016				
590	0.015				
591	0.021				
592	0.022				
593	0.018				
594	0.02				
595	0.02				
596	0.024				
597	0.029				
598	0.03				
599	0.034				
600	0.036				
601	0.04				
602	0.046				
603	0.046				
604	0.046				
605	0.041				
606	0.043				
607	0.041				
608	0.031				
609	0.029				
610	0.026				
611	0.025				
612	0.025				
613	0.027				
614	0.022				
615	0.026				
616	0.026				
617	0.027				
618	0.026				
619	0.021				
620	0.024				
621	0.027				
622	0.026				
623	0.031				
624	0.034				
625	0.036				
626	0.044				
627	0.046				
628	0.056				
629	0.066				
630	0.079				
631	0.102				
632	0.12				
633	0.163				
634	0.202				
635	0.229				
636	0.225				
637	0.194				
638	0.146				
639	0.109				
640	0.074				
641	0.057				
642	0.042				
643	0.037				
644	0.029				
645	0.022				
646	0.021				
647	0.016				
648	0.016				
649	0.015				
650	0.01				
651	0.01				
652	0.006				
653	0.011				
654	0.011				
655	0.01				
656	0.008				
657	0.011				
658	0.009				
659	0.009				
660	0.014				
661	0.009				
662	0.009				
663	0.01				
664	0.015				
665	0.011				
666	0.008				
667	0.017				
668	0.016				
669	0.016				
670	0.019				
671	0.025				
672	0.025				
673	0.032				
674	0.036				
675	0.05				
676	0.061				
677	0.076				
678	0.095				
679	0.118				
680	0.143				
681	0.171				
682	0.189				
683	0.205				
684	0.197				
685	0.183				
686	0.156				
687	0.138				
688	0.111				
689	0.091				
690	0.075				
691	0.063				
692	0.049				
693	0.042				
694	0.034				
695	0.028				
696	0.029				
697	0.027				
698	0.022				
699	0.019				
700	0.024				
701	0.016				
702	0.014				
703	0.012				
704	0.014				
705	0.013				
706	0.013				
707	0.012				
708	0.012				
709	0.011				
710	0.011				
711	0.011				
712	0.01				
713	0.012				
714	0.009				
715	0.011				
716	0.013				
717	0.012				
718	0.012				
719	0.014				
720	0.021				
721	0.021				
722	0.02				
723	0.016				
724	0.026				
725	0.031				
726	0.036				
727	0.042				
728	0.046				
729	0.063				
730	0.073				
731	0.088				
732	0.106				
733	0.122				
734	0.133				
735	0.141				
736	0.144				
737	0.14				
738	0.123				
739	0.12				
740	0.11				
741	0.097				
742	0.089				
743	0.082				
744	0.075				
745	0.069				
746	0.071				
747	0.062				
748	0.063				
749	0.063				
750	0.061				
751	0.056				
752	0.058				
753	0.061				
754	0.057				
755	0.053				
756	0.055				
757	0.062				
758	0.06				
759	0.058				
760	0.065				
761	0.062				
762	0.058				
763	0.062				
764	0.065				
765	0.063				
766	0.061				
767	0.061				
768	0.062				
769	0.063				
770	0.063				
771	0.066				
772	0.062				
773	0.06				
774	0.065				
775	0.066				
776	0.066				
777	0.068				
778	0.071				
779	0.074				
780	0.077				
781	0.08				
782	0.081				
783	0.092				
784	0.092				
785	0.099				
786	0.108				
787	0.117				
788	0.125				
789	0.139				
790	0.15				
791	0.168				
792	0.19				
793	0.213				
794	0.243				
795	0.27				
796	0.317				
797	0.355				
798	0.405				
799	0.464				
800	0.524				
801	0.592				
802	0.664				
803	0.721				
804	0.786				
805	0.832				
806	0.877				
807	0.92				
808	0.929				
809	0.926				
810	0.931				
811	0.926				
812	0.922				
813	0.912				
814	0.901				
815	0.883				
816	0.859				
817	0.842				
818	0.835				
819	0.843				
820	0.842				
821	0.862				
822	0.857				
823	0.847				
824	0.845				
825	0.812				
826	0.785				
827	0.766				
828	0.751				
829	0.725				
830	0.74				
831	0.733				
832	0.756				
833	0.761				
834	0.791				
835	0.832				
836	0.88				
837	0.939				
838	1.0				
839	1.052				
840	1.145				
841	1.219				
842	1.312				
843	1.402				
844	1.485				
845	1.583				
846	1.635				
847	1.675				
848	1.714				
849	1.765				
850	1.718				
851	1.719				
852	1.694				
853	1.639				
854	1.627				
855	1.598				
856	1.574				
857	1.544				
858	1.472				
859	1.494				
860	1.448				
861	1.459				
862	1.451				
863	1.492				
864	1.557				
865	1.598				
866	1.609				
867	1.671				
868	1.652				
869	1.726				
870	1.907				
871	1.935				
872	2.136				
873	2.238				
874	2.515				
875	2.64				
876	2.733				
877	3.0				
878	3.116				
879	3.291				
880	3.286				
881	3.194				
882	3.103				
883	2.911				
884	1.677				
885	1.526				
886	1.353				
887	1.212				
888	1.05				
889	0.881				
890	0.743				
891	0.622				
892	0.49				
893	0.424				
894	0.322				
895	0.244				
896	0.178				
897	0.108				
898	0.059				
899	0.014				
900	0.0				
901	0.0				
902	0.0				
903	0.0				
904	0.0				
905	0.0				
906	0.0				
907	0.0				
908	0.0				
909	0.0				
910	0.0				
911	0.0				
912	0.0				
913	0.0				
914	0.0				
915	0.0				
916	0.0				
917	0.0				
918	0.0				
919	0.0				
920	0.0				
921	0.0				
922	0.0				
923	0.0				
924	0.0				
925	0.0				
926	0.0				
927	0.0				
928	0.0				
929	0.0				
930	0.0				
931	0.0				
932	0.0				
933	0.0				
934	0.0				
935	0.0				
936	0.0				
937	0.0				
938	0.0				
939	0.0				
940	0.0				
941	0.0				
942	0.0				
943	0.0				
944	0.0				
945	0.0				
946	0.0				
947	0.0				
948	0.0				
949	0.0				
950	0.0				
951	0.0				
952	0.0				
953	0.0				
954	0.0				
955	0.039				
956	0.095				
957	0.155				
958	0.195				
959	0.264				
960	0.319				
961	0.419				
962	0.501				
963	0.617				
964	0.685				
965	0.83				
966	0.934				
967	1.054				
968	1.22				
969	1.367				
970	1.503				
971	1.656				
972	1.779				
973	1.919				
974	2.013				
975	2.058				
976	2.067				
977	2.031				
978	1.934				
979	1.843				
980	1.692				
981	1.561				
982	1.398				
983	1.243				
984	1.065				
985	0.946				
986	0.804				
987	0.674				
988	0.572				
989	0.488				
990	0.386				
991	0.322				
992	0.243				
993	0.199				
994	0.154				
995	0.122				
996	0.078				
997	0.057				
998	0.022				
999	0.006				
1000	0.0				
1001	0.0				
1002	0.0				
1003	0.0				
1004	0.0				
1005	0.0				
1006	0.0				
1007	0.0				
1008	0.0				
1009	0.021				
1010	0.004				
1011	0.048				
1012	0.029				
1013	0.076				
1014	0.081				
1015	0.112				
1016	0.111				
1017	0.147				
1018	0.153				
1019	0.193				
1020	0.184				
1021	0.195				
1022	0.218				
1023	0.238				
1024	0.25				
1025	0.262				
1026	0.267				
1027	0.269				
1028	0.284				
1029	0.291				
1030	0.284				
1031	0.289				
1032	0.299				
1033	0.307				
1034	0.317				
1035	0.322				
1036	0.323				
1037	0.36				
1038	0.366				
1039	0.399				
1040	0.411				
1041	0.472				
1042	0.48				
1043	0.534				
1044	0.588				
1045	0.649				
1046	0.694				
1047	0.773				
1048	0.865				
1049	0.976				
1050	1.087				
1051	1.223				
1052	1.337				
1053	1.502				
1054	1.69				
1055	1.873				
1056	2.083				
1057	2.346				
1058	2.588				
1059	2.869				
1060	3.171				
1061	3.448				
1062	3.712				
1063	3.994				
1064	4.23				
1065	4.408				
1066	4.529				
1067	4.609				
1068	4.573				
1069	4.518				
1070	4.388				
1071	4.216				
1072	4.028				
1073	3.799				
1074	3.57				
1075	3.367				
1076	3.156				
1077	2.965				
1078	2.763				
1079	2.6				
1080	2.444				
1081	2.303				
1082	2.179				
1083	2.074				
1084	1.981				
1085	1.918				
1086	1.849				
1087	1.774				
1088	1.723				
1089	1.694				
1090	1.693				
1091	1.675				
1092	1.667				
1093	1.676				
1094	1.681				
1095	1.695				
1096	1.732				
1097	1.783				
1098	1.816				
1099	1.887				
1100	1.947				
