Wavelength	Transmittance	hex_color	Manufacturer	Name	Filter Number
375	0.0		Omega	386.5NB2 Bandpass	W2875
376	0.0				
377	0.007				
378	0.007				
379	0.017				
380	0.035				
381	0.072				
382	0.2				
383	0.775				
384	4.911				
385	43.982				
386	54.686				
387	23.442				
388	2.733				
389	0.612				
390	0.225				
391	0.096				
392	0.045				
393	0.027				
394	0.018				
395	0.019				
