Wavelength	Transmittance	hex_color	Manufacturer	Name	Filter Number
300	0.0		Omega	525-637DBEM Dual Band	XF3457/25
301	0.0				
302	0.0				
303	0.0				
304	0.001				
305	0.001				
306	0.0				
307	0.0				
308	0.001				
309	0.0				
310	0.001				
311	0.002				
312	0.001				
313	0.0				
314	0.001				
315	0.0				
316	0.0				
317	0.0				
318	0.0				
319	0.0				
320	0.0				
321	0.0				
322	0.0				
323	0.002				
324	0.0				
325	0.001				
326	0.0				
327	0.0				
328	0.0				
329	0.0				
330	0.002				
331	0.0				
332	0.001				
333	0.0				
334	0.001				
335	0.002				
336	0.0				
337	0.001				
338	0.002				
339	0.0				
340	0.001				
341	0.0				
342	0.0				
343	0.001				
344	0.0				
345	0.0				
346	0.0				
347	0.0				
348	0.001				
349	0.001				
350	0.0				
351	0.002				
352	0.001				
353	0.0				
354	0.002				
355	0.0				
356	0.003				
357	0.0				
358	0.002				
359	0.0				
360	0.0				
361	0.001				
362	0.0				
363	0.002				
364	0.0				
365	0.0				
366	0.001				
367	0.001				
368	0.002				
369	0.001				
370	0.001				
371	0.003				
372	0.0				
373	0.002				
374	0.0				
375	0.001				
376	0.003				
377	0.0				
378	0.0				
379	0.001				
380	0.002				
381	0.004				
382	0.0				
383	0.0				
384	0.0				
385	0.002				
386	0.001				
387	0.0				
388	0.0				
389	0.002				
390	0.0				
391	0.0				
392	0.001				
393	0.0				
394	0.0				
395	0.003				
396	0.0				
397	0.0				
398	0.001				
399	0.0				
400	0.004				
401	0.002				
402	0.0				
403	0.0				
404	0.002				
405	0.0				
406	0.003				
407	0.0				
408	0.0				
409	0.0				
410	0.001				
411	0.002				
412	0.003				
413	0.002				
414	0.0				
415	0.0				
416	0.0				
417	0.003				
418	0.0				
419	0.001				
420	0.0				
421	0.0				
422	0.0				
423	0.001				
424	0.001				
425	0.002				
426	0.0				
427	0.0				
428	0.003				
429	0.001				
430	0.002				
431	0.001				
432	0.0				
433	0.001				
434	0.002				
435	0.002				
436	0.0				
437	0.0				
438	0.0				
439	0.0				
440	0.0				
441	0.002				
442	0.0				
443	0.003				
444	0.002				
445	0.0				
446	0.001				
447	0.001				
448	0.0				
449	0.0				
450	0.001				
451	0.0				
452	0.0				
453	0.0				
454	0.002				
455	0.0				
456	0.0				
457	0.0				
458	0.0				
459	0.001				
460	0.002				
461	0.0				
462	0.0				
463	0.003				
464	0.0				
465	0.002				
466	0.001				
467	0.0				
468	0.0				
469	0.003				
470	0.0				
471	0.0				
472	0.0				
473	0.0				
474	0.0				
475	0.002				
476	0.004				
477	0.0				
478	0.006				
479	0.0				
480	0.001				
481	0.0				
482	0.0				
483	0.001				
484	0.0				
485	0.002				
486	0.003				
487	0.0				
488	0.001				
489	0.002				
490	0.0				
491	0.001				
492	0.001				
493	0.0				
494	0.0				
495	0.0				
496	0.0				
497	0.0				
498	0.0				
499	0.0				
500	0.001				
501	0.0				
502	0.004				
503	0.018				
504	0.167				
505	1.328				
506	14.213				
507	60.574				
508	89.361				
509	94.739				
510	93.741				
511	95.564				
512	96.808				
513	95.9				
514	94.928				
515	95.133				
516	96.25				
517	97.395				
518	97.731				
519	97.093				
520	96.044				
521	95.458				
522	95.879				
523	96.877				
524	97.636				
525	97.634				
526	96.936				
527	96.328				
528	96.315				
529	96.828				
530	97.384				
531	97.42				
532	97.015				
533	96.5				
534	96.379				
535	95.925				
536	93.245				
537	89.088				
538	83.421				
539	48.501				
540	10.906				
541	1.769				
542	0.35				
543	0.084				
544	0.025				
545	0.01				
546	0.007				
547	0.004				
548	0.001				
549	0.0				
550	0.001				
551	0.0				
552	0.002				
553	0.001				
554	0.0				
555	0.001				
556	0.0				
557	0.0				
558	0.0				
559	0.0				
560	0.003				
561	0.0				
562	0.0				
563	0.002				
564	0.0				
565	0.0				
566	0.001				
567	0.001				
568	0.0				
569	0.0				
570	0.0				
571	0.0				
572	0.0				
573	0.0				
574	0.001				
575	0.0				
576	0.0				
577	0.002				
578	0.001				
579	0.0				
580	0.001				
581	0.004				
582	0.001				
583	0.001				
584	0.0				
585	0.0				
586	0.001				
587	0.0				
588	0.0				
589	0.0				
590	0.0				
591	0.0				
592	0.0				
593	0.0				
594	0.0				
595	0.0				
596	0.001				
597	0.002				
598	0.008				
599	0.011				
600	0.026				
601	0.065				
602	0.161				
603	0.445				
604	1.323				
605	4.154				
606	12.888				
607	33.981				
608	63.345				
609	83.685				
610	92.093				
611	95.347				
612	96.929				
613	97.729				
614	97.905				
615	97.695				
616	97.402				
617	97.22				
618	97.13				
619	97.234				
620	97.332				
621	97.263				
622	97.171				
623	97.012				
624	96.838				
625	96.779				
626	96.888				
627	97.132				
628	97.478				
629	97.835				
630	98.078				
631	98.187				
632	98.045				
633	97.814				
634	97.494				
635	97.182				
636	96.954				
637	96.876				
638	96.98				
639	97.174				
640	97.343				
641	97.594				
642	97.817				
643	97.98				
644	98.03				
645	98.027				
646	97.923				
647	97.739				
648	97.504				
649	97.299				
650	97.143				
651	97.137				
652	97.292				
653	97.581				
654	97.857				
655	98.139				
656	98.315				
657	98.417				
658	98.519				
659	98.387				
660	97.262				
661	93.656				
662	85.749				
663	73.079				
664	57.562				
665	42.506				
666	30.653				
667	22.144				
668	16.371				
669	12.567				
670	10.09				
671	8.51				
672	7.54				
673	7.027				
674	6.847				
675	6.891				
676	6.953				
677	6.669				
678	5.734				
679	4.324				
680	2.933				
681	1.898				
682	1.238				
683	0.827				
684	0.576				
685	0.411				
686	0.309				
687	0.237				
688	0.19				
689	0.158				
690	0.131				
691	0.114				
692	0.099				
693	0.093				
694	0.088				
695	0.082				
696	0.082				
697	0.083				
698	0.086				
699	0.093				
700	0.102				
701	0.116				
702	0.142				
703	0.179				
704	0.237				
705	0.352				
706	0.602				
707	1.266				
708	3.76				
709	9.812				
710	6.55				
711	2.023				
712	0.876				
713	0.509				
714	0.347				
715	0.264				
716	0.219				
717	0.199				
718	0.184				
719	0.182				
720	0.197				
721	0.225				
722	0.271				
723	0.363				
724	0.555				
725	1.034				
726	2.583				
727	6.351				
728	5.525				
729	1.883				
730	0.766				
731	0.415				
732	0.268				
733	0.194				
734	0.155				
735	0.13				
736	0.115				
737	0.107				
738	0.107				
739	0.113				
740	0.128				
741	0.15				
742	0.189				
743	0.26				
744	0.426				
745	0.866				
746	2.551				
747	7.21				
748	5.106				
749	1.405				
750	0.569				
751	0.311				
752	0.204				
753	0.153				
754	0.12				
755	0.109				
756	0.098				
757	0.091				
758	0.092				
759	0.099				
760	0.109				
761	0.13				
762	0.166				
763	0.238				
764	0.384				
765	0.786				
766	2.336				
767	8.149				
768	6.754				
769	1.698				
770	0.64				
771	0.345				
772	0.229				
773	0.171				
774	0.136				
775	0.121				
776	0.114				
777	0.108				
778	0.112				
779	0.127				
780	0.152				
781	0.203				
782	0.301				
783	0.567				
784	1.575				
785	7.214				
786	8.236				
787	1.528				
788	0.457				
789	0.213				
790	0.126				
791	0.083				
792	0.063				
793	0.047				
794	0.037				
795	0.034				
796	0.027				
797	0.025				
798	0.023				
799	0.023				
800	0.021				
801	0.024				
802	0.021				
803	0.02				
804	0.021				
805	0.024				
806	0.023				
807	0.021				
808	0.023				
809	0.026				
810	0.027				
811	0.027				
812	0.028				
813	0.031				
814	0.031				
815	0.031				
816	0.036				
817	0.036				
818	0.038				
819	0.042				
820	0.049				
821	0.047				
822	0.048				
823	0.043				
824	0.032				
825	0.029				
826	0.024				
827	0.014				
828	0.011				
829	0.012				
830	0.009				
831	0.008				
832	0.004				
833	0.004				
834	0.001				
835	0.0				
836	0.003				
837	0.002				
838	0.002				
839	0.001				
840	0.003				
841	0.003				
842	0.002				
843	0.0				
844	0.001				
845	0.002				
846	0.001				
847	0.002				
848	0.003				
849	0.0				
850	0.002				
