Wavelength	Transmittance	hex_color	Manufacturer	Name	Filter Number
300	0.0		Chroma		AT635/60m
301	0.0				
302	0.0				
303	0.0				
304	0.0				
305	0.0				
306	0.0				
307	0.0				
308	0.0				
309	0.0				
310	0.0				
311	0.0				
312	0.0				
313	0.0				
314	0.0				
315	0.0				
316	0.0				
317	0.0				
318	0.0				
319	0.0				
320	0.0				
321	0.0				
322	0.0				
323	0.0				
324	0.0				
325	0.0				
326	0.0				
327	0.0				
328	0.0				
329	0.0				
330	0.0				
331	0.0				
332	0.0				
333	0.0				
334	0.0				
335	0.0				
336	0.0				
337	0.0				
338	0.0				
339	0.0				
340	0.0				
341	0.0				
342	0.0				
343	0.0				
344	0.0				
345	0.0				
346	0.001				
347	0.001				
348	0.001				
349	0.001				
350	0.001				
351	0.002				
352	0.003				
353	0.002				
354	0.002				
355	0.005				
356	0.006				
357	0.007				
358	0.005				
359	0.002				
360	0.001				
361	0.003				
362	0.004				
363	0.001				
364	0.001				
365	0.002				
366	0.001				
367	0.003				
368	0.005				
369	0.006				
370	0.001				
371	0.001				
372	0.005				
373	0.002				
374	0.001				
375	0.001				
376	0.003				
377	0.003				
378	0.0				
379	0.0				
380	0.003				
381	0.004				
382	0.001				
383	0.0				
384	0.0				
385	0.003				
386	0.001				
387	0.0				
388	0.001				
389	0.001				
390	0.003				
391	0.001				
392	0.0				
393	0.0				
394	0.002				
395	0.002				
396	0.001				
397	0.0				
398	0.0				
399	0.001				
400	0.003				
401	0.0				
402	0.0				
403	0.001				
404	0.001				
405	0.003				
406	0.001				
407	0.0				
408	0.0				
409	0.002				
410	0.003				
411	0.001				
412	0.001				
413	0.0				
414	0.001				
415	0.004				
416	0.001				
417	0.0				
418	0.0				
419	0.001				
420	0.003				
421	0.002				
422	0.001				
423	0.0				
424	0.0				
425	0.003				
426	0.005				
427	0.0				
428	0.0				
429	0.001				
430	0.002				
431	0.006				
432	0.004				
433	0.0				
434	0.0				
435	0.0				
436	0.004				
437	0.009				
438	0.001				
439	0.001				
440	0.001				
441	0.002				
442	0.013				
443	0.004				
444	0.0				
445	0.0				
446	0.008				
447	0.014				
448	0.001				
449	0.001				
450	0.002				
451	0.016				
452	0.006				
453	0.0				
454	0.001				
455	0.008				
456	0.001				
457	0.001				
458	0.002				
459	0.0				
460	0.0				
461	0.0				
462	0.0				
463	0.0				
464	0.0				
465	0.0				
466	0.0				
467	0.0				
468	0.0				
469	0.0				
470	0.0				
471	0.0				
472	0.0				
473	0.0				
474	0.0				
475	0.0				
476	0.0				
477	0.0				
478	0.0				
479	0.0				
480	0.0				
481	0.0				
482	0.0				
483	0.0				
484	0.0				
485	0.0				
486	0.0				
487	0.0				
488	0.0				
489	0.0				
490	0.0				
491	0.0				
492	0.0				
493	0.0				
494	0.0				
495	0.0				
496	0.0				
497	0.0				
498	0.0				
499	0.0				
500	0.0				
501	0.0				
502	0.0				
503	0.0				
504	0.0				
505	0.0				
506	0.0				
507	0.0				
508	0.0				
509	0.0				
510	0.0				
511	0.0				
512	0.0				
513	0.0				
514	0.0				
515	0.0				
516	0.0				
517	0.0				
518	0.0				
519	0.0				
520	0.0				
521	0.0				
522	0.0				
523	0.0				
524	0.0				
525	0.0				
526	0.0				
527	0.0				
528	0.0				
529	0.0				
530	0.0				
531	0.0				
532	0.0				
533	0.0				
534	0.0				
535	0.0				
536	0.0				
537	0.0				
538	0.0				
539	0.0				
540	0.0				
541	0.0				
542	0.0				
543	0.0				
544	0.0				
545	0.0				
546	0.0				
547	0.0				
548	0.0				
549	0.0				
550	0.0				
551	0.0				
552	0.0				
553	0.0				
554	0.0				
555	0.0				
556	0.0				
557	0.0				
558	0.0				
559	0.0				
560	0.0				
561	0.0				
562	0.0				
563	0.0				
564	0.0				
565	0.0				
566	0.0				
567	0.0				
568	0.0				
569	0.0				
570	0.0				
571	0.0				
572	0.0				
573	0.0				
574	0.0				
575	0.0				
576	0.0				
577	0.0				
578	0.0				
579	0.0				
580	0.0				
581	0.0				
582	0.0				
583	0.0				
584	0.0				
585	0.0				
586	0.0				
587	0.0				
588	0.0				
589	0.0				
590	0.0				
591	0.0				
592	0.0				
593	0.0				
594	0.0				
595	0.0				
596	0.0				
597	0.0				
598	0.0				
599	0.001				
600	0.003				
601	0.009				
602	0.029				
603	0.099				
604	0.376				
605	1.659				
606	8.204				
607	34.612				
608	77.057				
609	93.258				
610	94.105				
611	94.617				
612	94.935				
613	94.915				
614	94.725				
615	94.669				
616	94.662				
617	94.801				
618	94.939				
619	95.041				
620	95.078				
621	95.085				
622	95.065				
623	94.949				
624	94.874				
625	94.902				
626	95.052				
627	95.109				
628	95.037				
629	94.787				
630	94.615				
631	94.542				
632	94.62				
633	94.877				
634	95.211				
635	95.429				
636	95.412				
637	95.181				
638	94.755				
639	94.412				
640	94.192				
641	94.263				
642	94.567				
643	95.024				
644	95.383				
645	95.436				
646	95.276				
647	94.962				
648	94.797				
649	94.697				
650	94.822				
651	94.963				
652	95.102				
653	95.183				
654	95.24				
655	95.304				
656	95.359				
657	95.267				
658	94.982				
659	94.551				
660	94.231				
661	94.333				
662	94.66				
663	94.327				
664	90.81				
665	79.975				
666	60.977				
667	39.524				
668	22.768				
669	12.49				
670	6.926				
671	4.059				
672	2.462				
673	1.56				
674	1.021				
675	0.691				
676	0.472				
677	0.325				
678	0.225				
679	0.157				
680	0.111				
681	0.079				
682	0.058				
683	0.043				
684	0.032				
685	0.025				
686	0.02				
687	0.016				
688	0.013				
689	0.011				
690	0.009				
691	0.007				
692	0.006				
693	0.005				
694	0.004				
695	0.003				
696	0.003				
697	0.002				
698	0.002				
699	0.002				
700	0.001				
701	0.001				
702	0.001				
703	0.001				
704	0.001				
705	0.001				
706	0.001				
707	0.001				
708	0.001				
709	0.0				
710	0.0				
711	0.0				
712	0.0				
713	0.0				
714	0.0				
715	0.0				
716	0.0				
717	0.0				
718	0.0				
719	0.0				
720	0.0				
721	0.0				
722	0.0				
723	0.0				
724	0.0				
725	0.0				
726	0.0				
727	0.0				
728	0.0				
729	0.0				
730	0.0				
731	0.0				
732	0.0				
733	0.0				
734	0.0				
735	0.0				
736	0.0				
737	0.0				
738	0.0				
739	0.0				
740	0.0				
741	0.0				
742	0.0				
743	0.0				
744	0.0				
745	0.0				
746	0.0				
747	0.0				
748	0.0				
749	0.0				
750	0.0				
751	0.0				
752	0.0				
753	0.0				
754	0.0				
755	0.0				
756	0.0				
757	0.0				
758	0.0				
759	0.0				
760	0.0				
761	0.0				
762	0.0				
763	0.0				
764	0.0				
765	0.0				
766	0.0				
767	0.0				
768	0.0				
769	0.0				
770	0.0				
771	0.0				
772	0.0				
773	0.0				
774	0.0				
775	0.0				
776	0.0				
777	0.0				
778	0.0				
779	0.0				
780	0.0				
781	0.0				
782	0.0				
783	0.0				
784	0.0				
785	0.0				
786	0.0				
787	0.0				
788	0.0				
789	0.0				
790	0.0				
791	0.0				
792	0.0				
793	0.0				
794	0.0				
795	0.0				
796	0.0				
797	0.0				
798	0.0				
799	0.0				
800	0.0				
801	0.0				
802	0.0				
803	0.0				
804	0.0				
805	0.0				
806	0.001				
807	0.001				
808	0.001				
809	0.001				
810	0.001				
811	0.001				
812	0.001				
813	0.001				
814	0.0				
815	0.0				
816	0.0				
817	0.0				
818	0.0				
819	0.0				
820	0.0				
821	0.0				
822	0.0				
823	0.0				
824	0.0				
825	0.0				
826	0.0				
827	0.0				
828	0.0				
829	0.0				
830	0.0				
831	0.0				
832	0.0				
833	0.0				
834	0.0				
835	0.0				
836	0.0				
837	0.0				
838	0.0				
839	0.0				
840	0.0				
841	0.0				
842	0.0				
843	0.0				
844	0.0				
845	0.0				
846	0.0				
847	0.0				
848	0.0				
849	0.0				
850	0.0				
851	0.0				
852	0.0				
853	0.0				
854	0.0				
855	0.0				
856	0.0				
857	0.0				
858	0.0				
859	0.0				
860	0.0				
861	0.0				
862	0.0				
863	0.0				
864	0.0				
865	0.0				
866	0.0				
867	0.0				
868	0.0				
869	0.0				
870	0.0				
871	0.0				
872	0.0				
873	0.0				
874	0.001				
875	0.001				
876	0.001				
877	0.002				
878	0.002				
879	0.004				
880	0.008				
881	0.02				
882	0.037				
883	0.055				
884	0.074				
885	0.091				
886	0.107				
887	0.122				
888	0.134				
889	0.143				
890	0.148				
891	0.145				
892	0.133				
893	0.117				
894	0.101				
895	0.085				
896	0.07				
897	0.056				
898	0.043				
899	0.032				
900	0.023				
901	0.018				
902	0.016				
903	0.016				
904	0.017				
905	0.019				
906	0.022				
907	0.026				
908	0.031				
909	0.038				
910	0.046				
911	0.057				
912	0.071				
913	0.09				
914	0.114				
915	0.143				
916	0.175				
917	0.207				
918	0.237				
919	0.267				
920	0.291				
921	0.309				
922	0.316				
923	0.312				
924	0.294				
925	0.266				
926	0.232				
927	0.195				
928	0.159				
929	0.125				
930	0.097				
931	0.075				
932	0.06				
933	0.051				
934	0.045				
935	0.042				
936	0.04				
937	0.04				
938	0.04				
939	0.041				
940	0.044				
941	0.046				
942	0.05				
943	0.054				
944	0.059				
945	0.064				
946	0.07				
947	0.076				
948	0.082				
949	0.089				
950	0.096				
951	0.104				
952	0.113				
953	0.124				
954	0.138				
955	0.157				
956	0.182				
957	0.217				
958	0.265				
959	0.326				
960	0.401				
961	0.49				
962	0.575				
963	0.65				
964	0.708				
965	0.732				
966	0.721				
967	0.676				
968	0.609				
969	0.528				
970	0.447				
971	0.374				
972	0.315				
973	0.271				
974	0.239				
975	0.217				
976	0.202				
977	0.191				
978	0.185				
979	0.182				
980	0.18				
981	0.181				
982	0.182				
983	0.184				
984	0.186				
985	0.188				
986	0.19				
987	0.192				
988	0.194				
989	0.196				
990	0.198				
991	0.2				
992	0.203				
993	0.207				
994	0.213				
995	0.22				
996	0.23				
997	0.242				
998	0.258				
999	0.278				
1000	0.304				
1001	0.336				
1002	0.377				
1003	0.429				
1004	0.493				
1005	0.571				
1006	0.675				
1007	0.795				
1008	0.938				
1009	1.057				
1010	1.26				
1011	1.492				
1012	1.749				
1013	1.994				
1014	2.212				
1015	2.367				
1016	2.449				
1017	2.458				
1018	2.41				
1019	2.322				
1020	2.217				
1021	2.109				
1022	1.998				
1023	1.901				
1024	1.814				
1025	1.73				
1026	1.66				
1027	1.598				
1028	1.543				
1029	1.495				
1030	1.453				
1031	1.418				
1032	1.39				
1033	1.367				
1034	1.35				
1035	1.338				
1036	1.332				
1037	1.333				
1038	1.34				
1039	1.353				
1040	1.372				
1041	1.399				
1042	1.431				
1043	1.473				
1044	1.522				
1045	1.58				
1046	1.65				
1047	1.73				
1048	1.825				
1049	1.931				
1050	2.051				
1051	2.2				
1052	2.364				
1053	2.554				
1054	2.789				
1055	3.053				
1056	3.365				
1057	3.742				
1058	4.186				
1059	4.731				
1060	5.381				
1061	6.17				
1062	7.139				
1063	8.299				
1064	9.758				
1065	11.497				
1066	13.554				
1067	16.158				
1068	18.976				
1069	22.118				
1070	25.556				
1071	28.867				
1072	31.904				
1073	34.385				
1074	36.199				
1075	37.338				
1076	37.895				
1077	38.087				
1078	38.075				
1079	38.025				
1080	38.085				
1081	38.274				
1082	38.694				
1083	39.341				
1084	40.206				
1085	41.255				
1086	42.525				
1087	43.92				
1088	45.518				
1089	47.207				
1090	49.007				
1091	50.794				
1092	52.53				
1093	54.291				
1094	55.92				
1095	57.571				
1096	59.241				
1097	60.811				
1098	62.215				
1099	63.624				
1100	64.947				
