Wavelength	Transmittance	hex_color	Manufacturer	Name	Filter Number
300	0.0		Chroma		ET445/58m
301	0.0				
302	0.0				
303	0.0				
304	0.0				
305	0.0				
306	0.0				
307	0.0				
308	0.0				
309	0.0				
310	0.0				
311	0.0				
312	0.0				
313	0.0				
314	0.0				
315	0.0				
316	0.0				
317	0.0				
318	0.0				
319	0.0				
320	0.0				
321	0.0				
322	0.0				
323	0.0				
324	0.0				
325	0.0				
326	0.0				
327	0.0				
328	0.0				
329	0.0				
330	0.0				
331	0.0				
332	0.0				
333	0.0				
334	0.0				
335	0.0				
336	0.0				
337	0.0				
338	0.0				
339	0.0				
340	0.0				
341	0.0				
342	0.0				
343	0.0				
344	0.0				
345	0.0				
346	0.0				
347	0.0				
348	0.0				
349	0.0				
350	0.0				
351	0.0				
352	0.0				
353	0.0				
354	0.0				
355	0.0				
356	0.0				
357	0.0				
358	0.0				
359	0.0				
360	0.0				
361	0.0				
362	0.0				
363	0.0				
364	0.0				
365	0.0				
366	0.0				
367	0.0				
368	0.0				
369	0.0				
370	0.0				
371	0.0				
372	0.0				
373	0.0				
374	0.0				
375	0.0				
376	0.0				
377	0.0				
378	0.0				
379	0.0				
380	0.0				
381	0.0				
382	0.0				
383	0.0				
384	0.0				
385	0.0				
386	0.0				
387	0.0				
388	0.0				
389	0.0				
390	0.0				
391	0.0				
392	0.0				
393	0.0				
394	0.0				
395	0.0				
396	0.0				
397	0.0				
398	0.0				
399	0.0				
400	0.0				
401	0.0				
402	0.0				
403	0.0				
404	0.0				
405	0.0				
406	0.0				
407	0.0				
408	0.0				
409	0.0				
410	0.0				
411	0.0				
412	0.0				
413	0.005				
414	0.23				
415	23.597				
416	86.668				
417	96.955				
418	98.234				
419	98.222				
420	98.506				
421	98.382				
422	98.228				
423	98.634				
424	98.778				
425	98.754				
426	98.831				
427	98.912				
428	98.585				
429	99.078				
430	98.823				
431	98.71				
432	98.767				
433	98.836				
434	98.826				
435	98.959				
436	98.971				
437	98.864				
438	98.664				
439	98.823				
440	98.956				
441	98.928				
442	98.544				
443	98.655				
444	98.61				
445	98.7				
446	98.939				
447	98.876				
448	98.858				
449	98.903				
450	98.806				
451	98.812				
452	98.727				
453	98.507				
454	98.589				
455	98.617				
456	98.625				
457	98.576				
458	98.707				
459	98.428				
460	98.683				
461	98.425				
462	98.631				
463	98.398				
464	98.379				
465	98.397				
466	98.561				
467	98.354				
468	98.291				
469	98.063				
470	97.852				
471	97.809				
472	97.416				
473	95.862				
474	48.632				
475	3.157				
476	0.235				
477	0.017				
478	0.002				
479	0.0				
480	0.0				
481	0.0				
482	0.0				
483	0.0				
484	0.0				
485	0.0				
486	0.0				
487	0.0				
488	0.0				
489	0.0				
490	0.0				
491	0.0				
492	0.0				
493	0.0				
494	0.0				
495	0.0				
496	0.0				
497	0.001				
498	0.0				
499	0.0				
500	0.0				
501	0.0				
502	0.0				
503	0.0				
504	0.0				
505	0.0				
506	0.001				
507	0.003				
508	0.002				
509	0.004				
510	0.004				
511	0.001				
512	0.001				
513	0.001				
514	0.002				
515	0.003				
516	0.003				
517	0.004				
518	0.006				
519	0.004				
520	0.002				
521	0.002				
522	0.005				
523	0.002				
524	0.0				
525	0.0				
526	0.0				
527	0.0				
528	0.0				
529	0.0				
530	0.0				
531	0.001				
532	0.0				
533	0.0				
534	0.0				
535	0.0				
536	0.0				
537	0.0				
538	0.002				
539	0.001				
540	0.0				
541	0.0				
542	0.0				
543	0.0				
544	0.001				
545	0.002				
546	0.003				
547	0.002				
548	0.001				
549	0.002				
550	0.004				
551	0.005				
552	0.003				
553	0.002				
554	0.003				
555	0.005				
556	0.003				
557	0.001				
558	0.0				
559	0.0				
560	0.0				
561	0.0				
562	0.0				
563	0.0				
564	0.001				
565	0.001				
566	0.003				
567	0.005				
568	0.006				
569	0.005				
570	0.004				
571	0.004				
572	0.004				
573	0.006				
574	0.005				
575	0.002				
576	0.001				
577	0.0				
578	0.0				
579	0.0				
580	0.0				
581	0.001				
582	0.004				
583	0.002				
584	0.001				
585	0.0				
586	0.0				
587	0.0				
588	0.0				
589	0.0				
590	0.0				
591	0.001				
592	0.003				
593	0.005				
594	0.002				
595	0.001				
596	0.001				
597	0.001				
598	0.004				
599	0.005				
600	0.002				
601	0.001				
602	0.0				
603	0.0				
604	0.0				
605	0.001				
606	0.004				
607	0.002				
608	0.0				
609	0.0				
610	0.0				
611	0.0				
612	0.0				
613	0.0				
614	0.0				
615	0.0				
616	0.0				
617	0.0				
618	0.0				
619	0.0				
620	0.001				
621	0.003				
622	0.007				
623	0.005				
624	0.003				
625	0.004				
626	0.006				
627	0.007				
628	0.005				
629	0.002				
630	0.001				
631	0.001				
632	0.001				
633	0.001				
634	0.001				
635	0.001				
636	0.001				
637	0.001				
638	0.002				
639	0.002				
640	0.003				
641	0.004				
642	0.006				
643	0.004				
644	0.002				
645	0.001				
646	0.001				
647	0.0				
648	0.0				
649	0.0				
650	0.0				
651	0.0				
652	0.0				
653	0.0				
654	0.0				
655	0.0				
656	0.001				
657	0.001				
658	0.002				
659	0.004				
660	0.006				
661	0.005				
662	0.004				
663	0.003				
664	0.003				
665	0.003				
666	0.004				
667	0.004				
668	0.005				
669	0.006				
670	0.006				
671	0.005				
672	0.005				
673	0.004				
674	0.004				
675	0.004				
676	0.005				
677	0.005				
678	0.006				
679	0.007				
680	0.007				
681	0.007				
682	0.006				
683	0.005				
684	0.004				
685	0.003				
686	0.002				
687	0.002				
688	0.002				
689	0.002				
690	0.002				
691	0.002				
692	0.002				
693	0.002				
694	0.002				
695	0.002				
696	0.002				
697	0.002				
698	0.002				
699	0.002				
700	0.002				
701	0.002				
702	0.002				
703	0.002				
704	0.002				
705	0.002				
706	0.001				
707	0.001				
708	0.002				
709	0.002				
710	0.002				
711	0.003				
712	0.003				
713	0.004				
714	0.005				
715	0.006				
716	0.006				
717	0.005				
718	0.005				
719	0.004				
720	0.004				
721	0.003				
722	0.003				
723	0.003				
724	0.003				
725	0.003				
726	0.003				
727	0.003				
728	0.003				
729	0.002				
730	0.002				
731	0.002				
732	0.002				
733	0.002				
734	0.003				
735	0.003				
736	0.003				
737	0.004				
738	0.005				
739	0.006				
740	0.007				
741	0.008				
742	0.007				
743	0.007				
744	0.007				
745	0.006				
746	0.006				
747	0.006				
748	0.006				
749	0.006				
750	0.007				
751	0.007				
752	0.007				
753	0.007				
754	0.007				
755	0.007				
756	0.007				
757	0.007				
758	0.007				
759	0.006				
760	0.006				
761	0.007				
762	0.007				
763	0.007				
764	0.007				
765	0.007				
766	0.006				
767	0.006				
768	0.006				
769	0.006				
770	0.005				
771	0.005				
772	0.005				
773	0.006				
774	0.006				
775	0.006				
776	0.006				
777	0.006				
778	0.006				
779	0.006				
780	0.006				
781	0.006				
782	0.006				
783	0.005				
784	0.005				
785	0.005				
786	0.006				
787	0.005				
788	0.006				
789	0.006				
790	0.006				
791	0.006				
792	0.006				
793	0.006				
794	0.006				
795	0.006				
796	0.006				
797	0.005				
798	0.006				
799	0.006				
800	0.006				
801	0.006				
802	0.006				
803	0.006				
804	0.006				
805	0.006				
806	0.006				
807	0.006				
808	0.005				
809	0.005				
810	0.005				
811	0.004				
812	0.004				
813	0.003				
814	0.003				
815	0.003				
816	0.002				
817	0.002				
818	0.002				
819	0.001				
820	0.001				
821	0.001				
822	0.001				
823	0.001				
824	0.001				
825	0.001				
826	0.001				
827	0.001				
828	0.002				
829	0.002				
830	0.002				
831	0.003				
832	0.003				
833	0.003				
834	0.004				
835	0.004				
836	0.005				
837	0.005				
838	0.005				
839	0.005				
840	0.005				
841	0.005				
842	0.004				
843	0.004				
844	0.004				
845	0.003				
846	0.003				
847	0.002				
848	0.002				
849	0.001				
850	0.001				
851	0.001				
852	0.0				
853	0.0				
854	0.0				
855	0.0				
856	0.0				
857	0.0				
858	0.0				
859	0.0				
860	0.0				
861	0.0				
862	0.0				
863	0.0				
864	0.0				
865	0.0				
866	0.0				
867	0.0				
868	0.0				
869	0.0				
870	0.0				
871	0.0				
872	0.001				
873	0.001				
874	0.001				
875	0.001				
876	0.001				
877	0.002				
878	0.002				
879	0.002				
880	0.002				
881	0.002				
882	0.002				
883	0.002				
884	0.001				
885	0.001				
886	0.001				
887	0.001				
888	0.001				
889	0.001				
890	0.0				
891	0.0				
892	0.0				
893	0.0				
894	0.0				
895	0.0				
896	0.0				
897	0.0				
898	0.0				
899	0.001				
900	0.001				
901	0.001				
902	0.001				
903	0.001				
904	0.001				
905	0.001				
906	0.002				
907	0.002				
908	0.002				
909	0.003				
910	0.003				
911	0.003				
912	0.004				
913	0.004				
914	0.005				
915	0.005				
916	0.005				
917	0.006				
918	0.006				
919	0.006				
920	0.006				
921	0.006				
922	0.006				
923	0.006				
924	0.006				
925	0.006				
926	0.006				
927	0.006				
928	0.005				
929	0.005				
930	0.005				
931	0.005				
932	0.005				
933	0.004				
934	0.004				
935	0.004				
936	0.004				
937	0.004				
938	0.004				
939	0.004				
940	0.004				
941	0.004				
942	0.004				
943	0.004				
944	0.004				
945	0.004				
946	0.005				
947	0.005				
948	0.006				
949	0.006				
950	0.007				
951	0.008				
952	0.01				
953	0.012				
954	0.014				
955	0.017				
956	0.021				
957	0.025				
958	0.031				
959	0.037				
960	0.045				
961	0.055				
962	0.066				
963	0.079				
964	0.095				
965	0.112				
966	0.132				
967	0.157				
968	0.186				
969	0.225				
970	0.275				
971	0.345				
972	0.446				
973	0.596				
974	0.821				
975	1.12				
976	1.505				
977	2.11				
978	3.178				
979	5.171				
980	8.671				
981	13.255				
982	16.124				
983	15.141				
984	11.997				
985	9.048				
986	7.034				
987	5.827				
988	5.098				
989	4.679				
990	4.46				
991	4.355				
992	4.308				
993	4.273				
994	4.218				
995	4.124				
996	3.981				
997	3.803				
998	3.61				
999	3.419				
1000	3.252				
1001	3.121				
1002	3.037				
1003	3.012				
1004	3.054				
1005	3.175				
1006	3.392				
1007	3.748				
1008	4.283				
1009	5.093				
1010	6.405				
1011	8.595				
1012	12.574				
1013	20.34				
1014	35.029				
1015	53.408				
1016	55.753				
1017	40.045				
1018	24.47				
1019	14.715				
1020	9.5				
1021	6.626				
1022	4.965				
1023	3.898				
1024	3.181				
1025	2.694				
1026	2.35				
1027	2.092				
1028	1.887				
1029	1.731				
1030	1.62				
1031	1.542				
1032	1.49				
1033	1.46				
1034	1.45				
1035	1.457				
1036	1.483				
1037	1.529				
1038	1.595				
1039	1.683				
1040	1.79				
1041	1.923				
1042	2.099				
1043	2.326				
1044	2.614				
1045	2.999				
1046	3.51				
1047	4.199				
1048	5.194				
1049	6.658				
1050	8.922				
1051	12.702				
1052	19.23				
1053	30.949				
1054	50.008				
1055	69.088				
1056	70.306				
1057	53.127				
1058	34.748				
1059	22.848				
1060	15.973				
1061	11.883				
1062	9.323				
1063	7.682				
1064	6.552				
1065	5.771				
1066	5.247				
1067	4.881				
1068	4.639				
1069	4.505				
1070	4.462				
1071	4.496				
1072	4.611				
1073	4.816				
1074	5.107				
1075	5.505				
1076	6.033				
1077	6.718				
1078	7.605				
1079	8.745				
1080	10.232				
1081	12.155				
1082	14.594				
1083	17.805				
1084	21.899				
1085	26.888				
1086	33.029				
1087	40.091				
1088	47.525				
1089	54.873				
1090	61.424				
1091	66.61				
1092	70.389				
1093	73.077				
1094	75.059				
1095	76.863				
1096	78.818				
1097	80.968				
1098	83.356				
1099	85.617				
1100					
