Wavelength	Transmittance	hex_color	Manufacturer	Name	Filter Number
300	0.0		Chroma		ET520/40m
301	0.0				
302	0.0				
303	0.0				
304	0.0				
305	0.0				
306	0.0				
307	0.0				
308	0.0				
309	0.0				
310	0.0				
311	0.0				
312	0.0				
313	0.0				
314	0.0				
315	0.0				
316	0.0				
317	0.0				
318	0.0				
319	0.0				
320	0.0				
321	0.0				
322	0.0				
323	0.0				
324	0.0				
325	0.0				
326	0.0				
327	0.0				
328	0.0				
329	0.0				
330	0.0				
331	0.0				
332	0.0				
333	0.0				
334	0.0				
335	0.0				
336	0.0				
337	0.0				
338	0.0				
339	0.0				
340	0.0				
341	0.0				
342	0.0				
343	0.0				
344	0.0				
345	0.0				
346	0.0				
347	0.0				
348	0.0				
349	0.0				
350	0.0				
351	0.0				
352	0.0				
353	0.0				
354	0.0				
355	0.0				
356	0.0				
357	0.0				
358	0.0				
359	0.0				
360	0.0				
361	0.0				
362	0.0				
363	0.0				
364	0.0				
365	0.0				
366	0.0				
367	0.0				
368	0.0				
369	0.0				
370	0.0				
371	0.0				
372	0.0				
373	0.0				
374	0.0				
375	0.0				
376	0.0				
377	0.0				
378	0.0				
379	0.0				
380	0.0				
381	0.0				
382	0.0				
383	0.0				
384	0.0				
385	0.0				
386	0.0				
387	0.0				
388	0.0				
389	0.0				
390	0.0				
391	0.0				
392	0.0				
393	0.0				
394	0.0				
395	0.0				
396	0.0				
397	0.0				
398	0.0				
399	0.0				
400	0.0				
401	0.0				
402	0.0				
403	0.0				
404	0.0				
405	0.0				
406	0.0				
407	0.0				
408	0.0				
409	0.0				
410	0.0				
411	0.0				
412	0.0				
413	0.0				
414	0.0				
415	0.0				
416	0.0				
417	0.0				
418	0.0				
419	0.0				
420	0.0				
421	0.0				
422	0.0				
423	0.0				
424	0.0				
425	0.0				
426	0.0				
427	0.0				
428	0.0				
429	0.0				
430	0.0				
431	0.0				
432	0.0				
433	0.0				
434	0.0				
435	0.0				
436	0.0				
437	0.0				
438	0.0				
439	0.0				
440	0.0				
441	0.0				
442	0.0				
443	0.0				
444	0.0				
445	0.0				
446	0.0				
447	0.0				
448	0.0				
449	0.0				
450	0.0				
451	0.0				
452	0.0				
453	0.0				
454	0.0				
455	0.0				
456	0.0				
457	0.0				
458	0.0				
459	0.0				
460	0.0				
461	0.0				
462	0.0				
463	0.0				
464	0.0				
465	0.0				
466	0.0				
467	0.0				
468	0.0				
469	0.0				
470	0.0				
471	0.0				
472	0.0				
473	0.0				
474	0.0				
475	0.0				
476	0.0				
477	0.0				
478	0.0				
479	0.0				
480	0.0				
481	0.0				
482	0.0				
483	0.0				
484	0.0				
485	0.0				
486	0.0				
487	0.0				
488	0.0				
489	0.0				
490	0.0				
491	0.0				
492	0.0				
493	0.0				
494	0.0				
495	0.003				
496	0.031				
497	0.461				
498	9.164				
499	63.348				
500	96.326				
501	96.836				
502	97.265				
503	97.891				
504	99.043				
505	99.388				
506	99.195				
507	98.834				
508	98.967				
509	98.892				
510	98.773				
511	98.555				
512	99.184				
513	99.48				
514	98.968				
515	98.099				
516	97.741				
517	98.42				
518	99.075				
519	99.227				
520	99.102				
521	99.423				
522	99.502				
523	99.542				
524	99.169				
525	99.075				
526	99.124				
527	99.131				
528	99.146				
529	99.067				
530	98.958				
531	99.066				
532	98.915				
533	97.922				
534	97.117				
535	97.305				
536	97.307				
537	95.864				
538	93.394				
539	56.258				
540	6.199				
541	0.843				
542	0.088				
543	0.012				
544	0.002				
545	0.001				
546	0.0				
547	0.0				
548	0.0				
549	0.0				
550	0.0				
551	0.0				
552	0.0				
553	0.0				
554	0.0				
555	0.0				
556	0.0				
557	0.0				
558	0.0				
559	0.0				
560	0.0				
561	0.0				
562	0.0				
563	0.0				
564	0.0				
565	0.0				
566	0.0				
567	0.0				
568	0.0				
569	0.0				
570	0.0				
571	0.0				
572	0.0				
573	0.0				
574	0.0				
575	0.0				
576	0.0				
577	0.0				
578	0.0				
579	0.0				
580	0.0				
581	0.0				
582	0.0				
583	0.0				
584	0.0				
585	0.0				
586	0.0				
587	0.0				
588	0.0				
589	0.0				
590	0.0				
591	0.0				
592	0.0				
593	0.0				
594	0.0				
595	0.0				
596	0.0				
597	0.0				
598	0.0				
599	0.0				
600	0.0				
601	0.0				
602	0.0				
603	0.0				
604	0.0				
605	0.0				
606	0.0				
607	0.0				
608	0.0				
609	0.0				
610	0.0				
611	0.0				
612	0.0				
613	0.0				
614	0.0				
615	0.0				
616	0.0				
617	0.0				
618	0.0				
619	0.0				
620	0.0				
621	0.0				
622	0.0				
623	0.0				
624	0.0				
625	0.0				
626	0.0				
627	0.0				
628	0.0				
629	0.0				
630	0.0				
631	0.0				
632	0.0				
633	0.0				
634	0.0				
635	0.0				
636	0.0				
637	0.0				
638	0.0				
639	0.0				
640	0.0				
641	0.0				
642	0.0				
643	0.0				
644	0.0				
645	0.0				
646	0.0				
647	0.0				
648	0.0				
649	0.0				
650	0.0				
651	0.0				
652	0.0				
653	0.0				
654	0.0				
655	0.0				
656	0.0				
657	0.0				
658	0.0				
659	0.0				
660	0.0				
661	0.0				
662	0.0				
663	0.0				
664	0.0				
665	0.0				
666	0.0				
667	0.0				
668	0.0				
669	0.0				
670	0.0				
671	0.0				
672	0.0				
673	0.0				
674	0.0				
675	0.0				
676	0.0				
677	0.0				
678	0.0				
679	0.0				
680	0.0				
681	0.0				
682	0.0				
683	0.0				
684	0.0				
685	0.0				
686	0.0				
687	0.0				
688	0.0				
689	0.0				
690	0.0				
691	0.0				
692	0.0				
693	0.0				
694	0.0				
695	0.0				
696	0.0				
697	0.0				
698	0.0				
699	0.0				
700	0.0				
701	0.0				
702	0.0				
703	0.0				
704	0.0				
705	0.0				
706	0.0				
707	0.0				
708	0.0				
709	0.0				
710	0.0				
711	0.0				
712	0.0				
713	0.0				
714	0.0				
715	0.0				
716	0.0				
717	0.0				
718	0.0				
719	0.0				
720	0.0				
721	0.0				
722	0.0				
723	0.0				
724	0.0				
725	0.0				
726	0.0				
727	0.0				
728	0.0				
729	0.0				
730	0.0				
731	0.0				
732	0.0				
733	0.0				
734	0.0				
735	0.0				
736	0.0				
737	0.0				
738	0.0				
739	0.0				
740	0.0				
741	0.0				
742	0.0				
743	0.0				
744	0.0				
745	0.0				
746	0.0				
747	0.0				
748	0.0				
749	0.0				
750	0.0				
751	0.0				
752	0.0				
753	0.0				
754	0.0				
755	0.0				
756	0.0				
757	0.001				
758	0.001				
759	0.001				
760	0.001				
761	0.001				
762	0.001				
763	0.001				
764	0.001				
765	0.002				
766	0.002				
767	0.002				
768	0.002				
769	0.003				
770	0.003				
771	0.004				
772	0.005				
773	0.006				
774	0.007				
775	0.009				
776	0.01				
777	0.013				
778	0.016				
779	0.019				
780	0.023				
781	0.028				
782	0.037				
783	0.047				
784	0.061				
785	0.078				
786	0.103				
787	0.137				
788	0.185				
789	0.258				
790	0.364				
791	0.527				
792	0.785				
793	1.211				
794	1.955				
795	3.198				
796	5.097				
797	7.307				
798	8.651				
799	8.335				
800	6.093				
801	5.931				
802	5.688				
803	5.427				
804	5.192				
805	5.02				
806	4.941				
807	4.968				
808	5.1				
809	5.314				
810	5.584				
811	5.884				
812	6.174				
813	6.415				
814	6.585				
815	6.665				
816	6.663				
817	6.596				
818	6.489				
819	6.367				
820	6.265				
821	6.21				
822	6.23				
823	6.346				
824	6.573				
825	6.944				
826	7.475				
827	8.192				
828	9.135				
829	10.323				
830	11.755				
831	13.35				
832	14.977				
833	16.386				
834	17.284				
835	17.502				
836	17.037				
837	16.06				
838	14.785				
839	13.454				
840	12.245				
841	11.201				
842	10.362				
843	9.745				
844	9.334				
845	9.121				
846	9.097				
847	9.259				
848	9.609				
849	10.173				
850	10.975				
851	12.065				
852	13.498				
853	15.349				
854	17.801				
855	20.993				
856	25.104				
857	30.548				
858	37.545				
859	46.243				
860	56.768				
861	68.103				
862	78.277				
863	84.796				
864	85.645				
865	80.962				
866	72.686				
867	63.169				
868	54.061				
869	46.205				
870	39.737				
871	34.531				
872	30.447				
873	27.211				
874	24.67				
875	22.725				
876	21.216				
877	20.08				
878	19.275				
879	18.734				
880	18.411				
881	18.288				
882	18.345				
883	18.539				
884	18.858				
885	19.269				
886	19.725				
887	20.202				
888	20.655				
889	21.057				
890	21.395				
891	21.671				
892	21.905				
893	22.14				
894	22.439				
895	22.862				
896	23.503				
897	24.45				
898	25.835				
899	27.822				
900	30.577				
901	34.408				
902	39.575				
903	46.268				
904	54.353				
905	62.424				
906	67.381				
907	65.929				
908	57.78				
909	46.144				
910	34.866				
911	25.906				
912	19.379				
913	14.835				
914	11.636				
915	9.362				
916	7.75				
917	6.557				
918	5.678				
919	5.038				
920	4.554				
921	4.206				
922	3.971				
923	3.822				
924	3.756				
925	3.772				
926	3.872				
927	4.074				
928	4.394				
929	4.864				
930	5.552				
931	6.561				
932	8.046				
933	10.303				
934	13.916				
935	19.622				
936	28.259				
937	37.799				
938	41.425				
939	35.346				
940	24.882				
941	16.414				
942	11.009				
943	7.7				
944	5.649				
945	4.323				
946	3.438				
947	2.822				
948	2.385				
949	2.065				
950	1.825				
951	1.65				
952	1.524				
953	1.434				
954	1.374				
955	1.339				
956	1.328				
957	1.34				
958	1.378				
959	1.44				
960	1.533				
961	1.666				
962	1.847				
963	2.095				
964	2.43				
965	2.907				
966	3.614				
967	4.677				
968	6.364				
969	9.292				
970	14.866				
971	26.698				
972	49.526				
973	67.287				
974	58.105				
975	36.302				
976	21.039				
977	12.504				
978	8.221				
979	5.895				
980	4.465				
981	3.543				
982	2.933				
983	2.506				
984	2.2				
985	1.977				
986	1.815				
987	1.702				
988	1.624				
989	1.578				
990	1.558				
991	1.563				
992	1.592				
993	1.648				
994	1.734				
995	1.852				
996	2.013				
997	2.228				
998	2.507				
999	2.884				
1000	0.0				
