Wavelength	Transmittance	hex_color	Manufacturer	Name	Filter Number
300	0.0		Chroma		zet405488mcustomnarrowblue0
301	0.0				
302	0.0				
303	0.0				
304	0.0				
305	0.0				
306	0.0				
307	0.0				
308	0.0				
309	0.0				
310	0.0				
311	0.0				
312	0.0				
313	0.0				
314	0.0				
315	0.0				
316	0.0				
317	0.0				
318	0.0				
319	0.0				
320	0.0				
321	0.0				
322	0.0				
323	0.0				
324	0.0				
325	0.0				
326	0.0				
327	0.0				
328	0.0				
329	0.0				
330	0.0				
331	0.0				
332	0.0				
333	0.0				
334	0.0				
335	0.0				
336	0.0				
337	0.0				
338	0.0				
339	0.0				
340	0.0				
341	0.0				
342	0.0				
343	0.0				
344	0.0				
345	0.0				
346	0.0				
347	0.0				
348	0.0				
349	0.0				
350	0.0				
351	0.0				
352	0.0				
353	0.0				
354	0.0				
355	0.0				
356	0.0				
357	0.0				
358	0.0				
359	0.0				
360	0.0				
361	0.0				
362	0.0				
363	0.0				
364	0.0				
365	0.0				
366	0.0				
367	0.0				
368	0.0				
369	0.0				
370	0.0				
371	0.0				
372	0.0				
373	0.0				
374	0.0				
375	0.0				
376	0.0				
377	0.0				
378	0.0				
379	0.0				
380	0.0				
381	0.0				
382	0.0				
383	0.0				
384	0.0				
385	0.0				
386	0.0				
387	0.0				
388	0.0				
389	0.0				
390	0.0				
391	0.0				
392	0.0				
393	0.0				
394	0.0				
395	0.0				
396	0.0				
397	0.0				
398	0.0				
399	0.0				
400	0.0				
401	0.0				
402	0.0				
403	0.0				
404	0.0				
405	0.0				
406	0.0				
407	0.0				
408	0.0				
409	0.0				
410	0.0				
411	0.0				
412	0.0				
413	0.0				
414	0.0				
415	0.0				
416	0.0				
417	0.0				
418	0.0				
419	0.0				
420	0.0				
421	0.0				
422	0.0				
423	0.0				
424	0.0				
425	0.0				
426	0.0				
427	0.0				
428	0.0				
429	0.0				
430	0.0				
431	0.0				
432	0.003				
433	0.04				
434	1.257				
435	33.805				
436	80.025				
437	91.884				
438	94.137				
439	92.21				
440	92.479				
441	92.293				
442	91.717				
443	94.725				
444	95.519				
445	90.291				
446	87.49				
447	91.746				
448	96.385				
449	96.134				
450	94.525				
451	94.15				
452	93.589				
453	93.41				
454	94.465				
455	94.125				
456	90.843				
457	89.316				
458	91.238				
459	93.206				
460	93.806				
461	95.045				
462	96.04				
463	93.85				
464	91.869				
465	93.61				
466	96.256				
467	94.893				
468	93.764				
469	94.981				
470	95.049				
471	93.956				
472	95.815				
473	95.663				
474	95.576				
475	55.217				
476	4.04				
477	1.775				
478	0.145				
479	0.019				
480	0.004				
481	0.001				
482	0.0				
483	0.0				
484	0.0				
485	0.0				
486	0.0				
487	0.0				
488	0.0				
489	0.0				
490	0.0				
491	0.0				
492	0.0				
493	0.0				
494	0.0				
495	0.0				
496	0.0				
497	0.0				
498	0.0				
499	0.0				
500	0.0				
501	0.0				
502	0.0				
503	0.0				
504	0.0				
505	0.0				
506	0.0				
507	0.0				
508	0.0				
509	0.0				
510	0.001				
511	0.002				
512	0.006				
513	0.027				
514	0.153				
515	1.246				
516	13.651				
517	64.839				
518	95.136				
519	95.653				
520	94.319				
521	96.902				
522	99.011				
523	97.978				
524	97.133				
525	97.706				
526	98.518				
527	98.623				
528	98.387				
529	98.702				
530	98.775				
531	98.651				
532	98.448				
533	98.051				
534	97.873				
535	97.608				
536	97.815				
537	98.152				
538	98.359				
539	98.055				
540	97.874				
541	97.68				
542	97.895				
543	98.588				
544	98.639				
545	98.179				
546	96.994				
547	95.798				
548	95.443				
549	95.573				
550	96.561				
551	97.345				
552	97.768				
553	97.845				
554	97.411				
555	96.977				
556	96.636				
557	96.31				
558	96.68				
559	97.495				
560	98.166				
561	98.322				
562	98.245				
563	98.01				
564	97.794				
565	97.827				
566	97.969				
567	98.059				
568	97.872				
569	98.037				
570	98.342				
571	98.483				
572	98.068				
573	97.517				
574	97.212				
575	97.579				
576	97.824				
577	96.037				
578	91.828				
579	87.249				
580	80.024				
581	48.001				
582	4.888				
583	2.119				
584	0.421				
585	0.1				
586	0.03				
587	0.01				
588	0.004				
589	0.002				
590	0.001				
591	0.0				
592	0.0				
593	0.0				
594	0.0				
595	0.0				
596	0.0				
597	0.0				
598	0.0				
599	0.0				
600	0.0				
601	0.0				
602	0.0				
603	0.0				
604	0.0				
605	0.0				
606	0.0				
607	0.0				
608	0.0				
609	0.0				
610	0.0				
611	0.0				
612	0.0				
613	0.0				
614	0.0				
615	0.0				
616	0.0				
617	0.0				
618	0.0				
619	0.0				
620	0.0				
621	0.0				
622	0.0				
623	0.0				
624	0.0				
625	0.0				
626	0.0				
627	0.0				
628	0.0				
629	0.0				
630	0.0				
631	0.0				
632	0.0				
633	0.0				
634	0.0				
635	0.0				
636	0.0				
637	0.0				
638	0.0				
639	0.0				
640	0.0				
641	0.0				
642	0.0				
643	0.0				
644	0.0				
645	0.001				
646	0.002				
647	0.003				
648	0.004				
649	0.004				
650	0.003				
651	0.003				
652	0.003				
653	0.002				
654	0.002				
655	0.002				
656	0.002				
657	0.002				
658	0.002				
659	0.001				
660	0.001				
661	0.001				
662	0.001				
663	0.001				
664	0.001				
665	0.001				
666	0.001				
667	0.001				
668	0.001				
669	0.0				
670	0.0				
671	0.0				
672	0.0				
673	0.0				
674	0.0				
675	0.0				
676	0.0				
677	0.0				
678	0.0				
679	0.0				
680	0.0				
681	0.0				
682	0.0				
683	0.0				
684	0.0				
685	0.0				
686	0.0				
687	0.0				
688	0.0				
689	0.0				
690	0.0				
691	0.0				
692	0.0				
693	0.0				
694	0.0				
695	0.0				
696	0.0				
697	0.0				
698	0.0				
699	0.0				
700	0.0				
701	0.0				
702	0.0				
703	0.0				
704	0.0				
705	0.0				
706	0.0				
707	0.0				
708	0.0				
709	0.0				
710	0.0				
711	0.0				
712	0.0				
713	0.0				
714	0.0				
715	0.0				
716	0.0				
717	0.0				
718	0.0				
719	0.0				
720	0.0				
721	0.0				
722	0.0				
723	0.0				
724	0.0				
725	0.0				
726	0.0				
727	0.0				
728	0.0				
729	0.0				
730	0.0				
731	0.0				
732	0.0				
733	0.0				
734	0.0				
735	0.0				
736	0.0				
737	0.0				
738	0.0				
739	0.0				
740	0.0				
741	0.0				
742	0.0				
743	0.0				
744	0.0				
745	0.0				
746	0.0				
747	0.0				
748	0.0				
749	0.0				
750	0.0				
751	0.0				
752	0.0				
753	0.0				
754	0.0				
755	0.0				
756	0.0				
757	0.0				
758	0.0				
759	0.0				
760	0.0				
761	0.0				
762	0.0				
763	0.001				
764	0.001				
765	0.001				
766	0.001				
767	0.001				
768	0.001				
769	0.001				
770	0.001				
771	0.001				
772	0.001				
773	0.001				
774	0.001				
775	0.001				
776	0.001				
777	0.001				
778	0.001				
779	0.001				
780	0.0				
781	0.0				
782	0.0				
783	0.0				
784	0.0				
785	0.0				
786	0.0				
787	0.0				
788	0.0				
789	0.0				
790	0.0				
791	0.0				
792	0.0				
793	0.0				
794	0.0				
795	0.0				
796	0.0				
797	0.0				
798	0.0				
799	0.0				
800	0.0				
801	0.0				
802	0.0				
803	0.0				
804	0.0				
805	0.0				
806	0.0				
807	0.0				
808	0.0				
809	0.0				
810	0.0				
811	0.0				
812	0.0				
813	0.0				
814	0.0				
815	0.0				
816	0.001				
817	0.001				
818	0.001				
819	0.001				
820	0.001				
821	0.001				
822	0.001				
823	0.001				
824	0.002				
825	0.002				
826	0.002				
827	0.002				
828	0.003				
829	0.003				
830	0.003				
831	0.004				
832	0.004				
833	0.005				
834	0.006				
835	0.007				
836	0.008				
837	0.011				
838	0.013				
839	0.017				
840	0.02				
841	0.026				
842	0.034				
843	0.043				
844	0.059				
845	0.084				
846	0.115				
847	0.168				
848	0.255				
849	0.396				
850	0.699				
851	1.152				
852	2.087				
853	4.064				
854	8.937				
855	20.343				
856	38.717				
857	44.307				
858	36.143				
859	28.802				
860	25.791				
861	25.627				
862	27.167				
863	30.644				
864	35.012				
865	38.311				
866	38.808				
867	35.313				
868	30.07				
869	24.762				
870	20.44				
871	17.448				
872	15.337				
873	13.871				
874	13.039				
875	12.623				
876	12.584				
877	12.709				
878	13.335				
879	14.09				
880	15.031				
881	15.956				
882	16.945				
883	17.739				
884	18.306				
885	18.607				
886	18.531				
887	18.375				
888	17.968				
889	17.704				
890	17.612				
891	17.79				
892	17.936				
893	18.712				
894	19.968				
895	21.807				
896	24.172				
897	27.568				
898	32.364				
899	38.818				
900	47.473				
901	58.685				
902	72.77				
903	83.606				
904	91.391				
905	91.918				
906	85.259				
907	74.874				
908	64.6				
909	55.356				
910	48.042				
911	43.192				
912	39.758				
913	36.797				
914	35.124				
915	33.926				
916	33.697				
917	33.934				
918	34.326				
919	34.706				
920	36.438				
921	36.567				
922	37.403				
923	37.598				
924	37.251				
925	36.352				
926	35.464				
927	33.685				
928	31.95				
929	30.46				
930	29.332				
931	27.619				
932	27.291				
933	26.456				
934	25.859				
935	26.23				
936	26.194				
937	26.996				
938	27.862				
939	28.49				
940	31.307				
941	32.238				
942	34.85				
943	37.556				
944	38.76				
945	42.994				
946	44.166				
947	47.637				
948	48.651				
949	50.821				
950	50.385				
951	52.722				
952	50.771				
953	52.896				
954	50.349				
955	53.819				
956	50.727				
957	54.828				
958	52.93				
959	58.294				
960	57.391				
961	63.127				
962	64.432				
963	71.581				
964	72.959				
965	80.084				
966	83.399				
967	88.159				
968	90.854				
969	92.233				
970	90.756				
971	89.066				
972	84.107				
973	81.276				
974	75.253				
975	69.23				
976	66.712				
977	59.646				
978	59.888				
979	55.474				
980	51.402				
981	52.348				
982	47.679				
983	47.813				
984	48.258				
985	44.674				
986	46.634				
987	46.468				
988	43.375				
989	45.266				
990	45.377				
991	43.526				
992	43.945				
993	44.213				
994	43.266				
995	42.017				
996	42.287				
997	42.82				
998	41.306				
999	40.387				
1000	43.005				
