Wavelength	Transmittance	hex_color	Manufacturer	Name	Filter Number
300	0.0		Chroma		ET550/60m
301	0.0				
302	0.0				
303	0.0				
304	0.0				
305	0.0				
306	0.0				
307	0.0				
308	0.0				
309	0.0				
310	0.0				
311	0.0				
312	0.0				
313	0.0				
314	0.0				
315	0.0				
316	0.0				
317	0.0				
318	0.0				
319	0.0				
320	0.0				
321	0.0				
322	0.0				
323	0.0				
324	0.0				
325	0.0				
326	0.0				
327	0.0				
328	0.0				
329	0.0				
330	0.0				
331	0.0				
332	0.0				
333	0.0				
334	0.0				
335	0.0				
336	0.0				
337	0.0				
338	0.0				
339	0.0				
340	0.0				
341	0.0				
342	0.0				
343	0.0				
344	0.0				
345	0.0				
346	0.0				
347	0.0				
348	0.0				
349	0.0				
350	0.0				
351	0.0				
352	0.0				
353	0.0				
354	0.0				
355	0.0				
356	0.0				
357	0.0				
358	0.0				
359	0.0				
360	0.0				
361	0.0				
362	0.0				
363	0.0				
364	0.0				
365	0.0				
366	0.0				
367	0.0				
368	0.0				
369	0.0				
370	0.0				
371	0.0				
372	0.0				
373	0.0				
374	0.0				
375	0.0				
376	0.0				
377	0.0				
378	0.0				
379	0.0				
380	0.0				
381	0.0				
382	0.0				
383	0.0				
384	0.0				
385	0.0				
386	0.0				
387	0.0				
388	0.0				
389	0.0				
390	0.0				
391	0.0				
392	0.0				
393	0.0				
394	0.0				
395	0.0				
396	0.0				
397	0.0				
398	0.0				
399	0.0				
400	0.0				
401	0.0				
402	0.0				
403	0.0				
404	0.0				
405	0.0				
406	0.0				
407	0.0				
408	0.0				
409	0.0				
410	0.0				
411	0.0				
412	0.0				
413	0.0				
414	0.0				
415	0.0				
416	0.0				
417	0.0				
418	0.0				
419	0.0				
420	0.0				
421	0.0				
422	0.0				
423	0.0				
424	0.0				
425	0.0				
426	0.0				
427	0.0				
428	0.0				
429	0.0				
430	0.0				
431	0.0				
432	0.0				
433	0.0				
434	0.0				
435	0.0				
436	0.0				
437	0.0				
438	0.0				
439	0.0				
440	0.0				
441	0.0				
442	0.0				
443	0.0				
444	0.0				
445	0.0				
446	0.0				
447	0.0				
448	0.0				
449	0.0				
450	0.0				
451	0.0				
452	0.0				
453	0.0				
454	0.0				
455	0.0				
456	0.0				
457	0.0				
458	0.0				
459	0.0				
460	0.0				
461	0.0				
462	0.0				
463	0.0				
464	0.0				
465	0.0				
466	0.0				
467	0.0				
468	0.0				
469	0.0				
470	0.0				
471	0.0				
472	0.0				
473	0.0				
474	0.0				
475	0.0				
476	0.0				
477	0.0				
478	0.0				
479	0.0				
480	0.0				
481	0.0				
482	0.0				
483	0.0				
484	0.0				
485	0.0				
486	0.0				
487	0.0				
488	0.0				
489	0.0				
490	0.0				
491	0.0				
492	0.0				
493	0.0				
494	0.0				
495	0.0				
496	0.0				
497	0.0				
498	0.0				
499	0.0				
500	0.0				
501	0.0				
502	0.0				
503	0.0				
504	0.0				
505	0.0				
506	0.0				
507	0.0				
508	0.0				
509	0.0				
510	0.0				
511	0.0				
512	0.0				
513	0.0				
514	0.001				
515	0.007				
516	0.059				
517	0.776				
518	18.375				
519	75.97				
520	82.206				
521	94.149				
522	97.156				
523	96.761				
524	98.78				
525	98.564				
526	97.104				
527	97.553				
528	98.988				
529	98.858				
530	97.397				
531	96.947				
532	98.14				
533	99.313				
534	98.971				
535	97.541				
536	96.764				
537	97.254				
538	98.425				
539	98.996				
540	98.401				
541	97.236				
542	96.453				
543	96.415				
544	97.094				
545	97.974				
546	98.728				
547	99.133				
548	99.232				
549	99.239				
550	99.195				
551	99.142				
552	99.094				
553	99.027				
554	98.982				
555	98.972				
556	99.074				
557	99.182				
558	99.193				
559	99.017				
560	98.639				
561	98.275				
562	98.157				
563	98.495				
564	99.055				
565	99.373				
566	98.944				
567	97.775				
568	96.713				
569	96.602				
570	97.611				
571	98.957				
572	99.148				
573	98.286				
574	97.602				
575	98.059				
576	98.788				
577	98.423				
578	97.722				
579	96.879				
580	75.209				
581	24.563				
582	3.393				
583	0.468				
584	0.082				
585	0.018				
586	0.005				
587	0.001				
588	0.0				
589	0.0				
590	0.0				
591	0.0				
592	0.0				
593	0.0				
594	0.0				
595	0.0				
596	0.0				
597	0.0				
598	0.0				
599	0.0				
600	0.0				
601	0.0				
602	0.0				
603	0.0				
604	0.0				
605	0.0				
606	0.0				
607	0.0				
608	0.0				
609	0.0				
610	0.0				
611	0.0				
612	0.0				
613	0.0				
614	0.0				
615	0.0				
616	0.0				
617	0.0				
618	0.0				
619	0.0				
620	0.0				
621	0.0				
622	0.0				
623	0.0				
624	0.0				
625	0.0				
626	0.0				
627	0.0				
628	0.0				
629	0.0				
630	0.0				
631	0.0				
632	0.0				
633	0.0				
634	0.0				
635	0.0				
636	0.0				
637	0.0				
638	0.0				
639	0.0				
640	0.0				
641	0.0				
642	0.0				
643	0.0				
644	0.0				
645	0.0				
646	0.0				
647	0.0				
648	0.0				
649	0.0				
650	0.0				
651	0.0				
652	0.0				
653	0.0				
654	0.0				
655	0.0				
656	0.0				
657	0.0				
658	0.0				
659	0.0				
660	0.0				
661	0.0				
662	0.0				
663	0.0				
664	0.0				
665	0.0				
666	0.0				
667	0.0				
668	0.0				
669	0.0				
670	0.0				
671	0.0				
672	0.0				
673	0.0				
674	0.0				
675	0.0				
676	0.0				
677	0.0				
678	0.0				
679	0.0				
680	0.0				
681	0.0				
682	0.0				
683	0.0				
684	0.0				
685	0.0				
686	0.0				
687	0.0				
688	0.0				
689	0.0				
690	0.0				
691	0.0				
692	0.0				
693	0.0				
694	0.0				
695	0.0				
696	0.0				
697	0.0				
698	0.0				
699	0.0				
700	0.0				
701	0.0				
702	0.0				
703	0.0				
704	0.0				
705	0.0				
706	0.0				
707	0.0				
708	0.0				
709	0.0				
710	0.0				
711	0.0				
712	0.0				
713	0.0				
714	0.0				
715	0.0				
716	0.0				
717	0.0				
718	0.0				
719	0.0				
720	0.0				
721	0.0				
722	0.0				
723	0.0				
724	0.0				
725	0.0				
726	0.0				
727	0.0				
728	0.0				
729	0.0				
730	0.0				
731	0.0				
732	0.0				
733	0.0				
734	0.0				
735	0.0				
736	0.0				
737	0.0				
738	0.0				
739	0.0				
740	0.0				
741	0.0				
742	0.0				
743	0.0				
744	0.0				
745	0.0				
746	0.0				
747	0.0				
748	0.0				
749	0.0				
750	0.0				
751	0.0				
752	0.0				
753	0.0				
754	0.0				
755	0.0				
756	0.0				
757	0.0				
758	0.0				
759	0.001				
760	0.001				
761	0.001				
762	0.001				
763	0.001				
764	0.001				
765	0.001				
766	0.001				
767	0.001				
768	0.001				
769	0.002				
770	0.002				
771	0.002				
772	0.002				
773	0.002				
774	0.003				
775	0.003				
776	0.003				
777	0.004				
778	0.005				
779	0.005				
780	0.006				
781	0.006				
782	0.007				
783	0.008				
784	0.009				
785	0.01				
786	0.012				
787	0.014				
788	0.016				
789	0.019				
790	0.022				
791	0.027				
792	0.032				
793	0.039				
794	0.048				
795	0.061				
796	0.074				
797	0.095				
798	0.124				
799	0.16				
800	0.664				
801	0.293				
802	0.402				
803	0.564				
804	0.816				
805	1.212				
806	1.86				
807	3.049				
808	5.252				
809	9.802				
810	19.892				
811	38.583				
812	59.44				
813	65.268				
814	51.7				
815	34.04				
816	22.588				
817	16.254				
818	12.655				
819	10.499				
820	9.071				
821	8.167				
822	7.584				
823	7.217				
824	7.043				
825	7.025				
826	7.158				
827	7.44				
828	7.886				
829	8.522				
830	9.397				
831	10.563				
832	12.073				
833	14.115				
834	16.713				
835	20.055				
836	24.385				
837	29.495				
838	35.276				
839	41.324				
840	46.298				
841	49.393				
842	50.039				
843	48.45				
844	45.399				
845	41.796				
846	38.146				
847	34.886				
848	32.084				
849	29.656				
850	27.665				
851	25.965				
852	24.437				
853	23.122				
854	21.925				
855	20.796				
856	19.756				
857	18.778				
858	17.883				
859	17.054				
860	16.326				
861	15.711				
862	15.205				
863	14.836				
864	14.606				
865	14.517				
866	14.589				
867	14.842				
868	15.294				
869	15.959				
870	16.881				
871	18.123				
872	19.736				
873	21.806				
874	24.415				
875	27.772				
876	31.955				
877	37.104				
878	43.549				
879	50.884				
880	59.033				
881	67.594				
882	74.976				
883	80.35				
884	82.864				
885	82.32				
886	79.391				
887	75.084				
888	70.198				
889	65.423				
890	61.13				
891	57.307				
892	54.122				
893	51.435				
894	49.105				
895	47.134				
896	45.414				
897	43.775				
898	42.274				
899	40.832				
900	39.408				
901	38.023				
902	36.693				
903	35.445				
904	34.278				
905	33.273				
906	32.417				
907	31.738				
908	31.272				
909	31.024				
910	31.004				
911	31.216				
912	31.679				
913	32.401				
914	33.363				
915	34.576				
916	36.011				
917	37.604				
918	39.317				
919	41.07				
920	42.839				
921	44.418				
922	45.72				
923	46.748				
924	47.353				
925	47.604				
926	47.598				
927	47.439				
928	47.169				
929	46.963				
930	46.977				
931	47.288				
932	47.975				
933	49.161				
934	50.929				
935	53.356				
936	56.646				
937	60.666				
938	65.587				
939	71.474				
940	77.75				
941	83.873				
942	89.051				
943	91.915				
944	91.537				
945	87.695				
946	81.039				
947	72.798				
948	64.413				
949	56.342				
950	49.509				
951	43.768				
952	38.953				
953	35.311				
954	32.339				
955	30.188				
956	28.483				
957	27.495				
958	26.748				
959	26.683				
960	26.778				
961	27.569				
962	28.513				
963	30.235				
964	32.09				
965	34.873				
966	37.752				
967	41.175				
968	44.837				
969	48.074				
970	50.543				
971	51.48				
972	50.642				
973	48.111				
974	44.445				
975	39.878				
976	35.71				
977	31.595				
978	28.034				
979	25.237				
980	22.745				
981	20.85				
982	19.46				
983	18.263				
984	17.547				
985	17.16				
986	16.911				
987	17.048				
988	17.578				
989	18.313				
990	19.447				
991	21.232				
992	23.633				
993	26.725				
994	31.171				
995	37.108				
996	44.905				
997	55.074				
998	66.876				
999	77.999				
1000	83.863				
1001	80.817				
1002	70.18				
1003	56.933				
1004	44.679				
1005	35.075				
1006	28.004				
1007	22.654				
1008	18.847				
1009	16.054				
1010	13.9				
1011	12.355				
1012	11.19				
1013	10.307				
1014	9.676				
1015	9.25				
1016	9.008				
1017	8.926				
1018	9.019				
1019	9.272				
1020	9.749				
1021	10.438				
1022	11.445				
1023	12.893				
1024	14.895				
1025	17.711				
1026	21.854				
1027	27.704				
1028	35.813				
1029	45.636				
1030	53.811				
1031	54.075				
1032	45.183				
1033	33.042				
1034	23.104				
1035	16.263				
1036	11.673				
1037	8.684				
1038	6.667				
1039	5.211				
1040	4.197				
1041	3.456				
1042	2.89				
1043	2.46				
1044	2.126				
1045	1.864				
1046	1.651				
1047	1.483				
1048	1.345				
1049	1.23				
1050	1.138				
1051	1.059				
1052	0.993				
1053	0.964				
1054	0.92				
1055	0.881				
1056	0.852				
1057	0.829				
1058	0.811				
1059	0.799				
1060	0.792				
1061	0.788				
1062	0.791				
1063	0.799				
1064	0.81				
1065	0.828				
1066	0.851				
1067	0.877				
1068	0.911				
1069	0.953				
1070	0.982				
1071	1.037				
1072	1.104				
1073	1.182				
1074	1.273				
1075	1.38				
1076	1.507				
1077	1.653				
1078	1.833				
1079	2.044				
1080	2.293				
1081	2.602				
1082	2.97				
1083	3.422				
1084	3.981				
1085	4.678				
1086	5.556				
1087	6.653				
1088	8.084				
1089	9.919				
1090	12.272				
1091	15.471				
1092	19.554				
1093	24.856				
1094	31.779				
1095	40.058				
1096	49.281				
1097	58.396				
1098	65.681				
1099	69.284				
1100	69.284				
