Wavelength	Transmittance	hex_color	Manufacturer	Name	Filter Number
363	0.017		Chroma	1931 Std. Obs. x-bar function	CIE 1931 Std. Obs. x-bar function
364	0.019				
365	0.022				
366	0.025				
367	0.028				
368	0.031				
369	0.035				
370	0.039				
371	0.044				
372	0.049				
373	0.055				
374	0.062				
375	0.07				
376	0.08				
377	0.091				
378	0.103				
379	0.116				
380	0.129				
381	0.141				
382	0.155				
383	0.17				
384	0.188				
385	0.21				
386	0.239				
387	0.272				
388	0.311				
389	0.353				
390	0.399				
391	0.448				
392	0.501				
393	0.562				
394	0.634				
395	0.72				
396	0.823				
397	0.944				
398	1.075				
399	1.211				
400	1.346				
401	1.477				
402	1.613				
403	1.767				
404	1.952				
405	2.182				
406	2.466				
407	2.802				
408	3.188				
409	3.619				
410	4.093				
411	4.61				
412	5.177				
413	5.807				
414	6.512				
415	7.304				
416	8.181				
417	9.143				
418	10.199				
419	11.362				
420	12.643				
421	14.052				
422	15.561				
423	17.121				
424	18.686				
425	20.206				
426	21.656				
427	23.039				
428	24.346				
429	25.572				
430	26.71				
431	27.749				
432	28.685				
433	29.522				
434	30.261				
435	30.906				
436	31.456				
437	31.913				
438	32.281				
439	32.564				
440	32.767				
441	32.891				
442	32.942				
443	32.93				
444	32.861				
445	32.746				
446	32.587				
447	32.389				
448	32.158				
449	31.902				
450	31.63				
451	31.348				
452	31.051				
453	30.73				
454	30.378				
455	29.984				
456	29.544				
457	29.06				
458	28.534				
459	27.966				
460	27.359				
461	26.716				
462	26.034				
463	25.3				
464	24.501				
465	23.624				
466	22.659				
467	21.625				
468	20.548				
469	19.457				
470	18.38				
471	17.331				
472	16.307				
473	15.306				
474	14.327				
475	13.369				
476	12.436				
477	11.531				
478	10.657				
479	9.812				
480	8.998				
481	8.213				
482	7.461				
483	6.747				
484	6.076				
485	5.452				
486	4.879				
487	4.354				
488	3.872				
489	3.426				
490	3.012				
491	2.626				
492	2.272				
493	1.946				
494	1.65				
495	1.383				
496	1.144				
497	0.933				
498	0.75				
499	0.592				
500	0.461				
501	0.355				
502	0.277				
503	0.228				
504	0.21				
505	0.226				
506	0.275				
507	0.361				
508	0.487				
509	0.657				
510	0.875				
511	1.143				
512	1.462				
513	1.832				
514	2.257				
515	2.738				
516	3.275				
517	3.869				
518	4.515				
519	5.21				
520	5.953				
521	6.74				
522	7.57				
523	8.443				
524	9.357				
525	10.311				
526	11.305				
527	12.335				
528	13.394				
529	14.475				
530	15.571				
531	16.677				
532	17.795				
533	18.926				
534	20.074				
535	21.239				
536	22.422				
537	23.621				
538	24.837				
539	26.07				
540	27.321				
541	28.591				
542	29.878				
543	31.182				
544	32.504				
545	33.841				
546	35.194				
547	36.564				
548	37.95				
549	39.355				
550	40.78				
551	42.223				
552	43.685				
553	45.165				
554	46.662				
555	48.174				
556	49.703				
557	51.245				
558	52.799				
559	54.362				
560	55.931				
561	57.504				
562	59.081				
563	60.66				
564	62.241				
565	63.825				
566	65.409				
567	66.992				
568	68.569				
569	70.139				
570	71.699				
571	73.246				
572	74.778				
573	76.293				
574	77.789				
575	79.264				
576	80.716				
577	82.141				
578	83.534				
579	84.891				
580	86.207				
581	87.477				
582	88.7				
583	89.874				
584	90.997				
585	92.068				
586	93.083				
587	94.039				
588	94.937				
589	95.776				
590	96.556				
591	97.278				
592	97.937				
593	98.521				
594	99.018				
595	99.416				
596	99.707				
597	99.896				
598	99.99				
599	100.0				
600	99.933				
601	99.796				
602	99.58				
603	99.277				
604	98.877				
605	98.371				
606	97.754				
607	97.032				
608	96.214				
609	95.309				
610	94.326				
611	93.269				
612	92.137				
613	90.929				
614	89.645				
615	88.286				
616	86.855				
617	85.355				
618	83.78				
619	82.126				
620	80.388				
621	78.566				
622	76.671				
623	74.718				
624	72.721				
625	70.693				
626	68.64				
627	66.571				
628	64.502				
629	62.452				
630	60.438				
631	58.473				
632	56.554				
633	54.671				
634	52.817				
635	50.983				
636	49.167				
637	47.374				
638	45.605				
639	43.86				
640	42.139				
641	40.442				
642	38.771				
643	37.129				
644	35.519				
645	33.945				
646	32.407				
647	30.907				
648	29.449				
649	28.036				
650	26.672				
651	25.359				
652	24.096				
653	22.88				
654	21.707				
655	20.576				
656	19.484				
657	18.433				
658	17.421				
659	16.448				
660	15.514				
661	14.617				
662	13.758				
663	12.935				
664	12.15				
665	11.403				
666	10.691				
667	10.016				
668	9.379				
669	8.781				
670	8.223				
671	7.705				
672	7.226				
673	6.781				
674	6.368				
675	5.984				
676	5.627				
677	5.295				
678	4.984				
679	4.687				
680	4.4				
681	4.119				
682	3.846				
683	3.582				
684	3.331				
685	3.095				
686	2.876				
687	2.67				
688	2.479				
689	2.301				
690	2.136				
691	1.984				
692	1.844				
693	1.716				
694	1.598				
695	1.49				
696	1.392				
697	1.301				
698	1.218				
699	1.141				
700	1.069				
701	1.0				
702	0.935				
703	0.874				
704	0.817				
705	0.763				
706	0.713				
707	0.667				
708	0.624				
709	0.583				
710	0.545				
711	0.509				
712	0.475				
713	0.444				
714	0.414				
715	0.387				
716	0.361				
717	0.336				
718	0.314				
719	0.293				
720	0.273				
721	0.254				
722	0.237				
723	0.221				
724	0.207				
725	0.193				
726	0.18				
727	0.168				
728	0.156				
729	0.145				
730	0.135				
731	0.126				
732	0.117				
733	0.109				
734	0.101				
735	0.094				
736	0.087				
737	0.081				
738	0.075				
739	0.07				
740	0.065				
741	0.06				
742	0.056				
743	0.052				
744	0.048				
745	0.045				
746	0.042				
747	0.039				
748	0.036				
749	0.034				
750	0.031				
751	0.029				
752	0.027				
753	0.025				
754	0.024				
755	0.022				
756	0.021				
757	0.019				
758	0.018				
759	0.017				
760	0.016				
761	0.015				
762	0.014				
763	0.013				
764	0.012				
765	0.011				
766	0.01				
767	0.01				
768	0.009				
769	0.008				
770	0.008				
771	0.007				
772	0.007				
773	0.006				
774	0.006				
775	0.006				
776	0.005				
777	0.005				
778	0.004				
779	0.004				
780	0.004				
781	0.004				
782	0.003				
783	0.003				
784	0.003				
785	0.003				
786	0.003				
787	0.002				
788	0.002				
789	0.002				
790	0.002				
791	0.002				
792	0.002				
793	0.002				
794	0.001				
795	0.001				
796	0.001				
797	0.001				
798	0.001				
799	0.001				
800	0.001				
801	0.001				
802	0.001				
803	0.001				
804	0.001				
805	0.001				
806	0.001				
807	0.001				
808	0.001				
809	0.001				
810	0.0				
811	0.0				
812	0.0				
813	0.0				
814	0.0				
815	0.0				
816	0.0				
817	0.0				
818	0.0				
819	0.0				
820	0.0				
821	0.0				
822	0.0				
823	0.0				
824	0.0				
825	0.0				
826	0.0				
827	0.0				
828	0.0				
829	0.0				
830	0.0				
831	0.0				
